time,ax,ay,az,atotal
0.000,0.47,-0.05,0.08,0.48
0.010,0.24,-0.05,-0.01,0.24
0.020,0.15,-0.00,-0.06,0.16
0.030,0.09,-0.02,-0.06,0.11
0.040,0.04,0.06,-0.07,0.10
0.050,0.03,0.07,-0.06,0.10
0.060,0.07,-0.03,-0.04,0.08
0.070,0.09,-0.10,-0.00,0.13
0.080,0.06,-0.08,0.00,0.10
0.090,-0.02,-0.03,0.01,0.04
0.100,-0.24,0.05,-0.00,0.25
0.110,-0.32,0.10,-0.02,0.34
0.120,-0.26,0.14,-0.01,0.30
0.130,-0.09,0.13,0.03,0.16
0.140,0.08,0.05,0.08,0.13
0.150,0.10,0.00,0.05,0.12
0.160,0.17,-0.00,0.01,0.17
0.170,0.20,0.05,0.07,0.21
0.180,0.12,0.09,0.02,0.15
0.190,0.02,0.08,-0.01,0.08
0.200,-0.03,0.11,0.15,0.19
0.210,-0.00,0.16,0.31,0.35
0.220,0.08,0.12,0.30,0.34
0.231,0.17,0.10,0.24,0.31
0.240,0.19,-0.01,0.26,0.32
0.250,0.17,0.10,0.29,0.35
0.261,0.18,0.10,0.29,0.35
0.271,0.11,0.13,0.30,0.35
0.281,0.00,0.13,0.31,0.33
0.291,-0.12,0.16,0.42,0.46
0.301,-0.27,0.20,0.32,0.46
0.311,-0.34,0.20,0.17,0.43
0.321,-0.25,0.18,0.22,0.38
0.331,-0.26,0.13,0.24,0.38
0.341,-0.28,0.16,0.09,0.33
0.351,-0.34,0.06,0.14,0.37
0.361,-0.20,0.02,0.02,0.20
0.371,0.12,0.09,-0.09,0.18
0.381,0.18,0.34,-0.09,0.39
0.391,0.21,0.19,-0.23,0.36
0.401,0.41,-0.26,-0.30,0.57
0.411,0.44,-0.34,-0.22,0.60
0.421,0.33,-0.12,0.03,0.35
0.431,0.35,0.36,0.02,0.51
0.441,0.41,0.31,0.10,0.52
0.451,0.47,-0.02,0.25,0.53
0.461,0.35,-0.02,0.27,0.44
0.471,0.09,0.06,0.35,0.37
0.481,0.11,0.12,0.36,0.40
0.491,0.23,0.14,0.33,0.43
0.501,0.28,0.15,0.27,0.42
0.511,0.20,0.16,0.38,0.46
0.521,0.11,0.21,0.47,0.52
0.531,0.00,0.22,0.55,0.59
0.541,-0.04,0.20,0.58,0.61
0.551,0.20,0.23,0.53,0.62
0.561,0.31,0.27,0.41,0.58
0.571,0.21,0.21,0.45,0.54
0.581,0.11,0.30,0.57,0.65
0.591,-0.00,0.40,0.40,0.57
0.601,-0.06,0.34,0.30,0.46
0.611,-0.08,0.28,0.42,0.51
0.621,-0.07,0.24,0.31,0.40
0.631,0.01,0.26,0.15,0.30
0.641,0.05,0.15,-0.07,0.18
0.651,0.09,0.01,-0.12,0.15
0.661,-0.01,0.05,-0.13,0.14
0.671,-0.23,0.07,-0.09,0.26
0.681,-0.43,0.11,-0.30,0.53
0.691,-0.49,0.03,-0.68,0.84
0.701,-0.48,-0.14,-0.76,0.91
0.711,-0.31,-0.14,-0.54,0.64
0.721,0.07,-0.21,-0.49,0.54
0.731,0.29,-0.26,-0.77,0.86
0.741,0.03,-0.33,-0.73,0.80
0.751,-0.10,-0.30,-0.81,0.87
0.761,0.20,-0.18,-0.61,0.67
0.772,0.41,-0.13,-0.40,0.59
0.781,0.31,-0.20,-0.43,0.57
0.792,-0.03,-0.21,-0.52,0.56
0.802,-0.45,-0.16,-0.40,0.62
0.812,-0.68,-0.05,-0.39,0.78
0.822,-0.53,0.24,-0.41,0.71
0.832,-0.17,0.19,0.03,0.26
0.842,0.13,0.04,0.26,0.29
0.852,0.25,-0.03,0.11,0.27
0.862,0.40,-0.02,0.12,0.42
0.872,0.40,0.11,0.25,0.48
0.882,0.22,0.22,0.23,0.39
0.892,0.33,0.22,0.35,0.53
0.902,0.42,0.09,0.32,0.54
0.912,0.35,-0.03,0.23,0.42
0.922,0.43,0.03,0.35,0.55
0.932,0.21,0.32,0.71,0.80
0.942,-0.31,0.47,0.71,0.91
0.952,-0.67,0.26,0.67,0.98
0.962,-0.74,0.40,0.97,1.28
0.972,-0.64,0.61,1.06,1.38
0.982,-0.39,0.59,1.21,1.40
0.992,-0.36,0.58,1.35,1.51
1.002,-0.64,0.64,1.42,1.68
1.012,-0.97,0.67,1.52,1.93
1.022,-1.17,0.66,1.42,1.96
1.032,-1.30,0.77,1.27,1.97
1.042,-1.39,0.58,1.34,2.01
1.052,-1.33,0.40,0.74,1.57
1.062,-0.80,0.39,-0.02,0.89
1.072,0.09,0.34,-0.05,0.36
1.082,0.80,0.37,-0.13,0.89
1.092,1.25,0.29,-0.36,1.34
1.102,1.58,0.06,-0.18,1.59
1.112,1.61,-0.01,0.09,1.61
1.123,1.52,-0.21,-0.58,1.64
1.133,1.31,-0.46,-1.17,1.82
1.142,1.09,-0.72,-0.78,1.52
1.152,0.72,-0.78,-0.29,1.10
1.162,0.32,-0.82,-0.23,0.91
1.173,0.00,-0.92,0.08,0.93
1.182,-0.12,-1.14,0.13,1.15
1.193,-0.12,-1.50,0.30,1.53
1.203,-0.08,-1.77,0.46,1.83
1.213,0.01,-1.96,0.44,2.01
1.223,0.24,-2.24,0.49,2.31
1.233,0.37,-2.46,0.78,2.61
1.243,0.48,-2.10,1.20,2.47
1.253,0.54,-1.49,1.19,1.98
1.263,0.71,-1.66,1.37,2.27
1.273,0.70,-2.16,1.20,2.57
1.283,0.22,-2.84,0.86,2.98
1.293,-0.28,-3.91,2.54,4.67
1.303,-0.70,-4.92,4.89,6.98
1.313,-1.00,-6.28,6.30,8.95
1.323,-0.60,-10.54,5.45,11.88
1.333,0.37,-10.28,3.61,10.90
1.343,1.11,-5.86,3.50,6.91
1.353,1.90,-4.12,4.43,6.34
1.363,2.27,-3.40,5.32,6.71
1.374,2.07,-3.56,5.60,6.95
1.383,-0.39,-4.20,4.34,6.05
1.393,-3.85,-4.32,1.45,5.97
1.403,-6.38,-4.84,2.30,8.33
1.413,-8.06,-6.76,9.73,14.33
1.423,-6.39,-6.94,14.77,17.52
1.433,-3.05,-3.89,14.18,15.02
1.443,-2.51,-1.59,13.27,13.60
1.453,-3.03,-1.63,13.68,14.11
1.463,-1.66,-1.86,13.81,14.04
1.473,-1.04,-2.29,12.99,13.24
1.483,-0.95,-2.86,12.06,12.43
1.493,-0.65,-3.17,11.08,11.55
1.503,-0.65,-3.26,9.88,10.42
1.513,-0.57,-3.19,8.49,9.08
1.523,-0.58,-3.10,7.19,7.85
1.533,-0.55,-2.99,5.99,6.72
1.543,-0.63,-2.88,4.97,5.78
1.553,-0.85,-2.91,3.94,4.97
1.563,-1.01,-2.95,2.87,4.24
1.573,-0.98,-3.02,2.06,3.79
1.583,-0.67,-3.17,1.37,3.52
1.593,-0.18,-3.24,0.74,3.33
1.603,0.45,-3.14,0.18,3.17
1.613,0.98,-3.06,-0.10,3.22
1.623,1.29,-3.01,-0.42,3.30
1.633,1.51,-2.76,-0.98,3.30
1.643,1.75,-2.44,-1.51,3.36
1.653,1.92,-2.19,-1.72,3.38
1.663,1.82,-2.13,-1.81,3.33
1.674,1.69,-2.10,-1.89,3.29
1.684,1.66,-1.85,-1.70,3.01
1.694,2.17,-0.66,-5.05,5.54
1.703,2.82,0.15,-5.87,6.52
1.714,3.30,-0.29,-4.70,5.74
1.723,3.74,-0.54,-4.95,6.22
1.734,3.84,-0.58,-5.94,7.10
1.743,3.52,-0.63,-6.80,7.68
1.754,2.31,-0.43,-8.69,9.01
1.764,0.93,-0.31,-9.83,9.88
1.774,0.47,-0.52,-9.59,9.61
1.784,0.75,-0.81,-9.03,9.10
1.794,0.85,-1.28,-8.55,8.69
1.804,1.06,-0.88,-11.71,11.79
1.814,1.22,-0.41,-13.03,13.09
1.824,1.17,-0.27,-11.57,11.63
1.834,0.96,0.13,-9.90,9.95
1.844,0.30,0.56,-10.08,10.10
1.854,-0.22,0.96,-11.58,11.62
1.864,-0.47,1.40,-12.98,13.06
1.874,-0.87,1.62,-13.45,13.58
1.884,-1.33,1.24,-12.50,12.63
1.894,-1.68,0.25,-11.51,11.64
1.904,-2.03,-1.58,-9.71,10.04
1.914,-2.18,-4.92,-4.07,6.75
1.924,-0.81,-8.05,0.95,8.15
1.934,0.15,-9.25,1.05,9.31
1.944,0.28,-6.37,-3.26,7.16
1.954,2.56,-1.54,-7.33,7.92
1.964,4.63,2.10,-8.34,9.77
1.974,6.42,0.98,-1.50,6.66
1.984,5.66,0.20,-1.40,5.84
1.994,0.82,-0.38,-4.63,4.72
2.004,-1.41,-1.16,-4.71,5.05
2.014,-0.69,-1.62,-3.09,3.56
2.024,-0.73,-1.43,-2.40,2.88
2.034,-0.79,-1.06,-2.06,2.45
2.044,-0.39,-0.89,-1.45,1.75
2.054,-0.31,-0.64,-1.25,1.44
2.064,-0.49,-0.29,-1.23,1.36
2.074,-0.89,0.16,-1.11,1.44
2.084,-1.03,0.33,-0.50,1.19
2.094,-0.71,0.13,-0.11,0.73
2.104,-0.46,0.03,-0.30,0.55
2.114,-0.61,0.02,-0.66,0.90
2.124,-0.83,-0.04,-0.64,1.04
2.134,-0.75,-0.06,-0.36,0.84
2.144,-0.37,0.06,-0.30,0.48
2.154,0.15,0.26,-0.29,0.41
2.164,0.54,0.44,-0.38,0.79
2.174,0.56,0.25,-0.21,0.64
2.184,0.36,-0.24,-0.01,0.44
2.194,0.15,-0.65,0.19,0.69
2.204,0.01,-0.86,0.39,0.95
2.215,0.09,-0.59,0.54,0.80
2.225,0.26,0.09,0.62,0.68
2.235,0.21,0.56,0.67,0.89
2.244,-0.00,0.69,0.66,0.95
2.255,-0.29,0.56,0.37,0.73
2.265,-0.49,0.33,0.07,0.60
2.275,-0.48,0.10,0.01,0.49
2.285,-0.11,0.01,0.14,0.18
2.295,0.31,-0.13,0.44,0.56
2.305,0.70,-0.26,0.54,0.92
2.315,1.03,-0.28,0.33,1.12
2.325,1.22,-0.32,0.41,1.33
2.335,1.25,-0.37,0.49,1.39
2.345,1.08,-0.50,0.53,1.31
2.355,0.83,-0.70,0.84,1.37
2.365,0.48,-0.72,1.14,1.43
2.375,0.12,-0.52,1.07,1.19
2.385,-0.03,-0.28,1.19,1.22
2.395,-0.05,-0.12,1.36,1.37
2.405,-0.03,-0.42,1.22,1.29
2.415,0.18,-1.01,1.34,1.69
2.425,0.47,-1.34,1.19,1.85
2.435,0.51,-1.61,1.26,2.11
2.445,0.29,-2.02,1.80,2.72
2.455,-0.05,-2.43,2.48,3.47
2.465,-0.51,-2.52,2.94,3.90
2.475,-0.82,-2.64,2.70,3.86
2.485,-1.12,-3.23,2.53,4.25
2.495,-2.07,-5.33,3.61,6.76
2.505,-2.51,-9.05,7.39,11.95
2.515,-0.81,-14.82,6.92,16.38
2.525,0.95,-17.77,7.64,19.37
2.535,1.37,-13.55,7.70,15.64
2.545,1.80,-11.87,9.45,15.28
2.556,0.79,-11.01,10.88,15.50
2.565,-2.11,-9.00,8.69,12.69
2.575,-6.33,-7.39,3.09,10.21
2.585,-8.82,-6.89,-0.01,11.20
2.595,-9.96,-8.57,5.70,14.32
2.605,-9.70,-10.27,11.19,18.02
2.615,-7.34,-8.14,11.35,15.78
2.625,-4.39,-4.51,12.05,13.60
2.635,-2.42,-2.66,11.91,12.44
2.645,-2.80,-1.10,11.02,11.43
2.655,-2.79,0.34,10.65,11.02
2.665,-2.51,1.41,10.60,10.98
2.675,-2.63,1.94,10.66,11.15
2.685,-2.27,2.11,10.09,10.55
2.696,-1.31,2.18,9.51,9.85
2.705,-0.49,2.16,8.95,9.22
2.716,-0.26,2.27,7.68,8.01
2.725,-0.48,2.20,6.52,6.90
2.736,-0.68,1.50,5.98,6.20
2.746,-0.55,0.66,5.32,5.39
2.756,-0.25,0.27,4.14,4.16
2.765,-0.30,-0.04,3.35,3.36
2.776,-0.41,-0.38,1.91,1.99
2.786,-0.16,-0.96,1.08,1.45
2.796,0.18,-1.69,0.44,1.76
2.806,0.46,-2.28,-0.64,2.41
2.816,0.72,-2.80,-1.51,3.27
2.826,1.14,-3.38,-2.12,4.15
2.836,1.56,-4.04,-3.02,5.28
2.846,1.86,-4.57,-4.21,6.49
2.856,2.26,-4.68,-5.01,7.22
2.866,2.32,-4.33,-5.29,7.22
2.876,2.24,-3.61,-5.59,7.02
2.886,2.19,-3.21,-5.44,6.68
2.896,1.99,-3.25,-6.12,7.21
2.906,1.49,-3.73,-6.74,7.85
2.916,0.68,-4.82,-6.92,8.46
2.926,-0.43,-5.96,-9.14,10.93
2.936,-0.73,-5.46,-14.97,15.95
2.946,-0.44,-4.79,-22.54,23.05
2.956,-0.93,-4.94,-17.52,18.22
2.966,-0.55,-5.89,-7.52,9.57
2.976,1.08,-3.76,-15.17,15.67
2.986,2.00,0.34,-21.79,21.88
2.996,3.63,2.91,-18.00,18.59
3.006,3.55,3.59,-14.45,15.31
3.016,0.95,1.81,-12.95,13.11
3.026,-0.86,-1.63,-3.73,4.16
3.036,-1.45,-5.36,-0.67,5.59
3.046,1.91,-5.77,-16.60,17.68
3.056,-0.06,-7.26,-7.21,10.23
3.066,-2.31,-7.14,-4.76,8.88
3.076,1.64,-6.43,-6.15,9.04
3.086,4.77,-4.20,-10.56,12.33
3.096,7.49,-3.43,-3.16,8.83
3.106,8.10,-2.46,-1.70,8.63
3.116,4.08,-0.20,-4.46,6.05
3.126,1.91,1.59,-6.52,6.97
3.136,1.69,-0.08,-3.34,3.74
3.146,1.88,-2.47,-0.61,3.17
3.156,1.23,-2.18,-1.03,2.71
3.166,0.14,-1.50,-2.21,2.68
3.176,0.13,-1.49,-1.89,2.41
3.186,-0.20,-1.14,-1.09,1.59
3.196,-0.68,-0.36,-0.82,1.12
3.207,-0.75,0.29,-0.66,1.04
3.217,-0.50,0.68,-0.57,1.02
3.226,-0.43,0.58,-0.76,1.05
3.237,-0.71,0.22,-0.73,1.05
3.246,-0.88,-0.04,-0.65,1.10
3.257,-0.78,-0.12,-0.69,1.05
3.267,-0.52,-0.01,-0.54,0.75
3.277,-0.08,0.07,0.08,0.13
3.287,0.27,-0.09,0.65,0.71
3.297,0.60,-0.32,0.73,1.00
3.307,0.83,-0.48,0.65,1.16
3.317,0.78,-0.46,0.59,1.08
3.327,0.62,-0.44,0.57,0.95
3.337,0.34,-0.29,0.55,0.71
3.347,0.17,0.08,0.65,0.68
3.357,-0.03,0.35,0.84,0.91
3.367,-0.26,0.53,1.05,1.21
3.377,-0.43,0.71,1.11,1.39
3.387,-0.67,0.63,0.92,1.30
3.397,-0.92,0.61,0.72,1.32
3.407,-0.99,0.55,0.66,1.31
3.417,-0.77,0.20,0.58,0.98
3.427,-0.32,-0.04,0.37,0.49
3.437,0.08,-0.24,0.37,0.44
3.447,0.25,-0.37,0.37,0.58
3.457,0.36,-0.49,0.07,0.61
3.467,0.51,-0.59,-0.08,0.78
3.477,0.72,-0.72,-0.06,1.02
3.487,0.91,-0.96,-0.20,1.34
3.497,1.05,-1.26,-0.39,1.69
3.507,1.13,-1.48,-0.40,1.91
3.517,1.22,-1.43,0.03,1.88
3.527,1.07,-1.19,0.22,1.61
3.537,0.92,-0.79,0.13,1.22
3.547,0.68,-0.71,0.41,1.07
3.557,0.20,-1.02,1.23,1.62
3.567,-0.16,-1.34,1.68,2.16
3.577,-0.17,-1.53,1.66,2.27
3.587,-0.09,-1.72,1.40,2.22
3.597,-0.43,-1.54,1.49,2.18
3.607,-0.76,-0.21,2.24,2.37
3.617,-0.05,-0.64,2.19,2.28
3.627,0.11,-1.49,2.04,2.53
3.637,0.36,-1.33,2.76,3.08
3.647,0.83,-1.48,2.59,3.09
3.657,1.23,-1.25,3.10,3.56
3.667,1.58,-2.26,4.45,5.24
3.677,1.69,-3.80,7.02,8.16
3.687,2.24,-5.74,9.21,11.08
3.697,2.80,-9.88,12.22,15.97
3.707,3.20,-17.16,16.11,23.75
3.718,3.61,-21.53,6.91,22.90
3.728,4.25,-19.15,-3.40,19.91
3.738,3.76,-11.66,10.13,15.90
3.748,-0.98,-5.41,5.72,7.93
3.758,-3.35,-3.68,4.40,6.64
3.768,-5.65,-4.57,15.77,17.36
3.778,-9.06,-6.13,16.28,19.61
3.788,-10.28,-6.35,13.20,17.89
3.798,-6.34,-3.96,12.22,14.32
3.808,-1.21,-2.81,14.45,14.78
3.818,0.32,-2.17,13.92,14.09
3.828,-0.27,-0.92,12.76,12.79
3.838,-1.28,0.20,11.73,11.80
3.848,-2.56,0.94,10.96,11.29
3.858,-3.71,1.33,9.30,10.10
3.868,-4.30,1.58,7.65,8.91
3.878,-4.61,1.48,6.77,8.32
3.888,-4.51,1.09,5.67,7.33
3.898,-4.07,0.59,5.36,6.75
3.908,-3.54,-0.01,5.50,6.54
3.918,-2.99,-0.48,4.03,5.04
3.928,-2.63,-0.88,3.01,4.09
3.938,-2.24,-1.25,2.10,3.31
3.948,-1.73,-1.62,1.15,2.64
3.958,-1.17,-2.15,0.71,2.55
3.968,-0.33,-2.98,0.29,3.01
3.978,0.85,-3.79,-0.98,4.00
3.988,1.19,-4.63,-1.59,5.04
3.998,0.60,-5.55,-2.48,6.10
4.008,0.07,-5.89,-5.34,7.94
4.018,-0.12,-6.18,-7.07,9.39
4.028,-0.41,-6.63,-6.45,9.26
4.038,-0.45,-6.35,-8.00,10.22
4.048,-0.57,-5.85,-10.11,11.70
4.058,-0.66,-5.56,-11.17,12.49
4.068,-0.72,-5.42,-12.34,13.50
4.078,-1.04,-5.44,-13.57,14.66
4.088,-1.65,-5.54,-14.81,15.90
4.098,-1.85,-5.09,-16.84,17.69
4.108,-1.69,-3.90,-17.49,18.00
4.118,-1.31,-2.23,-17.91,18.10
4.128,-0.94,-0.72,-18.62,18.66
4.138,-0.44,0.59,-19.06,19.07
4.148,0.11,1.61,-19.30,19.37
4.158,0.00,1.24,-18.88,18.92
4.168,-0.57,0.28,-17.88,17.89
4.179,-0.79,-0.17,-16.90,16.92
4.188,-1.12,-0.62,-15.32,15.38
4.198,-1.39,-1.34,-13.21,13.35
4.208,-0.89,-2.14,-5.75,6.20
4.218,1.41,-7.91,34.28,35.21
4.228,4.06,-9.49,-1.12,10.38
4.238,3.54,-4.81,-14.69,15.86
4.248,2.14,-3.57,-0.37,4.18
4.258,3.38,-1.47,-11.32,11.91
4.268,3.00,-1.37,-8.31,8.94
4.279,0.86,-3.41,-0.40,3.54
4.288,-0.26,-4.08,0.52,4.12
4.299,-0.69,-2.22,-5.80,6.25
4.309,0.08,-0.29,-3.08,3.10
4.319,0.50,0.13,-1.55,1.63
4.329,-0.89,0.38,-0.88,1.31
4.339,-0.74,0.11,-1.20,1.42
4.349,-0.06,-0.85,-1.88,2.06
4.359,-0.16,-1.68,-1.77,2.44
4.369,-0.41,-1.54,-1.22,2.00
4.379,-0.72,-0.63,-0.86,1.29
4.389,-1.19,0.29,-0.85,1.49
4.399,-1.22,0.48,-0.62,1.45
4.409,-0.82,0.18,-0.58,1.02
4.419,-0.07,-0.26,-0.47,0.54
4.429,0.54,-0.55,-0.21,0.80
4.439,0.56,-0.50,-0.23,0.78
4.449,0.31,-0.16,-0.14,0.38
4.459,0.20,0.21,-0.09,0.30
4.469,0.32,0.39,-0.26,0.57
4.479,0.48,0.27,-0.28,0.62
4.489,0.43,-0.13,0.06,0.45
4.499,0.30,-0.44,0.44,0.69
4.509,0.31,-0.46,0.74,0.93
4.519,0.38,-0.29,0.75,0.89
4.529,0.56,0.02,0.58,0.80
4.539,0.54,0.25,0.73,0.94
4.549,0.16,0.30,1.09,1.14
4.560,-0.15,0.46,1.22,1.31
4.569,-0.42,0.58,1.21,1.41
4.579,-0.72,0.55,1.04,1.38
4.589,-0.74,0.39,0.66,1.06
4.599,-0.43,0.06,0.22,0.49
4.609,-0.00,-0.24,0.03,0.24
4.619,0.40,-0.46,0.08,0.61
4.629,0.49,-0.67,0.19,0.85
4.639,0.47,-0.90,0.25,1.05
4.649,0.75,-1.16,-0.10,1.38
4.659,0.98,-1.51,-0.27,1.82
4.669,0.96,-1.66,0.20,1.93
4.679,0.98,-1.50,0.62,1.90
4.689,0.98,-1.20,0.65,1.68
4.699,0.96,-0.97,0.66,1.52
4.710,0.84,-0.91,0.85,1.50
4.719,0.67,-1.36,1.13,1.89
4.730,0.60,-1.51,1.39,2.13
4.740,0.49,-1.53,1.32,2.08
4.749,0.13,-1.75,1.02,2.03
4.760,-0.27,-2.04,0.90,2.25
4.769,-0.77,-2.38,1.74,3.04
4.780,-1.22,-2.97,2.54,4.09
4.790,-1.03,-3.68,2.66,4.66
4.800,-0.21,-4.13,3.14,5.19
4.810,0.33,-4.87,3.74,6.15
4.820,-0.15,-5.74,5.02,7.63
4.830,-0.55,-5.21,6.86,8.63
4.840,0.41,-6.24,6.32,8.89
4.850,1.21,-7.06,7.08,10.07
4.860,1.52,-8.04,9.68,12.67
4.870,1.19,-10.63,13.74,17.42
4.880,0.04,-15.52,18.42,24.09
4.890,0.45,-15.34,7.65,17.15
4.900,-0.82,-7.99,-6.36,10.24
4.910,-3.25,-5.23,-3.98,7.34
4.920,-7.20,-7.53,9.67,14.21
4.930,-11.35,-8.81,22.24,26.48
4.940,-11.54,-8.84,11.73,18.68
4.950,-12.01,-9.46,14.99,21.41
4.960,-7.70,-5.62,15.37,18.09
4.970,-3.97,-2.26,16.35,16.98
4.980,-1.43,-0.98,16.74,16.83
4.990,-0.30,0.03,14.75,14.76
5.000,-1.18,0.68,14.18,14.25
5.010,-2.05,0.65,12.57,12.75
5.020,-2.43,0.88,10.30,10.62
5.030,-3.08,0.89,9.50,10.02
5.040,-3.26,0.90,9.19,9.79
5.050,-2.99,1.04,8.13,8.73
5.060,-2.44,0.66,8.76,9.12
5.070,-1.73,0.14,8.15,8.33
5.080,-1.10,0.02,5.86,5.96
5.090,-0.73,-0.49,5.18,5.25
5.100,-0.38,-1.24,4.30,4.49
5.110,-0.10,-1.98,3.20,3.77
5.120,0.29,-2.73,2.21,3.52
5.130,0.80,-3.58,1.91,4.14
5.140,1.45,-4.61,1.02,4.94
5.150,1.61,-5.74,-1.15,6.07
5.160,1.23,-7.24,-1.55,7.51
5.170,0.66,-8.92,-2.30,9.23
5.180,0.11,-9.56,-7.05,11.88
5.190,0.93,-9.61,-7.79,12.41
5.201,0.93,-10.02,-7.05,12.29
5.211,-0.35,-9.96,-12.40,15.91
5.221,-0.93,-9.84,-15.12,18.06
5.231,-0.73,-10.64,-14.08,17.66
5.241,-0.40,-11.40,-15.62,19.35
5.251,-1.79,-11.19,-19.14,22.25
5.261,-3.84,-8.87,-22.07,24.10
5.270,-4.34,-4.78,-24.36,25.20
5.281,-3.80,-1.02,-26.05,26.34
5.291,-2.90,1.82,-27.56,27.77
5.301,-1.22,3.10,-28.51,28.71
5.311,2.51,2.56,-28.23,28.46
5.321,4.40,0.87,-25.66,26.05
5.331,1.96,-1.03,-20.88,21.00
5.341,-1.68,-3.17,-6.10,7.07
5.351,-3.44,-11.85,42.32,44.08
5.361,0.32,-10.17,-23.24,25.37
5.371,2.29,-6.32,-14.94,16.38
5.381,3.72,-6.18,3.60,8.06
5.391,4.13,-3.80,-10.14,11.59
5.401,5.48,-2.59,-5.76,8.36
5.411,6.39,-2.80,0.92,7.04
5.421,1.53,-2.49,-4.71,5.54
5.431,-2.74,-1.05,-6.88,7.48
5.441,-1.29,-0.81,-3.04,3.40
5.451,0.54,-1.40,-1.36,2.02
5.461,0.72,-0.99,-1.75,2.14
5.471,1.45,-1.35,-2.66,3.31
5.481,2.44,-2.25,-1.18,3.53
5.491,1.74,-2.49,-0.98,3.20
5.501,0.10,-1.66,-1.71,2.39
5.511,-0.99,-0.48,-1.33,1.73
5.521,-1.50,0.47,-0.37,1.61
5.531,-1.58,0.51,-0.26,1.68
5.541,-1.44,0.23,-0.78,1.65
5.551,-0.69,-0.23,-0.43,0.84
5.561,0.24,-0.57,-0.26,0.67
5.571,0.72,-0.25,-0.33,0.83
5.581,0.70,0.08,-0.39,0.81
5.591,0.65,0.06,-0.09,0.66
5.601,0.70,-0.15,0.36,0.81
5.611,0.51,-0.45,0.48,0.83
5.621,0.20,-0.48,0.54,0.75
5.631,-0.20,-0.24,0.75,0.81
5.641,-0.35,0.00,0.90,0.96
5.651,-0.17,0.14,0.81,0.84
5.661,-0.03,0.34,0.60,0.69
5.671,0.06,0.52,0.51,0.73
5.681,-0.12,0.49,0.59,0.77
5.691,-0.38,0.39,0.65,0.85
5.701,-0.39,0.32,0.64,0.82
5.711,-0.15,0.32,0.56,0.66
5.722,-0.09,0.26,0.52,0.59
5.731,-0.02,-0.08,0.46,0.47
5.742,0.13,-0.50,0.12,0.53
5.751,0.25,-0.89,0.04,0.92
5.762,0.51,-1.15,0.12,1.26
5.771,0.73,-1.28,0.03,1.47
5.782,0.87,-1.24,0.09,1.52
5.792,0.85,-1.03,0.35,1.38
5.802,0.64,-0.83,0.57,1.19
5.812,0.58,-0.65,0.70,1.13
5.822,0.58,-0.67,0.78,1.18
5.832,0.64,-0.85,0.93,1.42
5.842,0.46,-1.20,1.23,1.78
5.852,0.06,-1.53,1.62,2.23
5.862,-0.22,-1.62,1.87,2.49
5.872,-0.21,-1.52,1.63,2.24
5.882,-0.11,-1.54,1.18,1.95
5.892,-0.42,-1.89,1.33,2.35
5.902,-1.36,-2.58,2.41,3.78
5.912,-2.00,-3.51,3.54,5.37
5.922,-1.33,-4.58,3.99,6.22
5.932,-0.18,-6.06,3.69,7.10
5.942,-0.24,-8.64,4.84,9.91
5.952,-0.86,-11.63,8.31,14.32
5.962,-0.54,-12.94,9.15,15.86
5.972,0.58,-12.09,10.85,16.25
5.982,1.16,-11.39,13.27,17.53
5.992,0.90,-11.19,11.69,16.21
6.002,1.90,-8.26,1.29,8.58
6.012,-2.45,-6.02,1.66,6.71
6.022,-6.37,-6.60,4.23,10.10
6.032,-9.66,-8.30,10.22,16.33
6.042,-14.67,-11.02,20.84,27.77
6.052,-14.95,-9.95,12.97,22.16
6.062,-13.03,-5.29,13.76,19.68
6.072,-7.72,-2.97,16.41,18.37
6.082,-3.69,-2.23,16.01,16.58
6.092,-2.53,-0.80,14.92,15.16
6.102,-2.33,0.57,13.61,13.82
6.112,-2.51,1.03,13.46,13.73
6.122,-2.22,1.46,12.29,12.57
6.132,-1.94,1.99,10.71,11.07
6.142,-2.02,2.30,8.63,9.15
6.152,-2.38,2.11,7.72,8.35
6.162,-2.61,1.65,8.24,8.80
6.172,-2.64,1.12,7.98,8.48
6.182,-2.19,0.51,7.34,7.68
6.192,-1.86,0.14,5.99,6.27
6.202,-1.74,-0.25,4.62,4.94
6.212,-1.55,-1.15,4.07,4.50
6.222,-1.30,-2.18,4.02,4.75
6.232,-0.67,-2.86,3.08,4.25
6.242,0.13,-3.42,1.70,3.82
6.252,1.02,-4.11,1.00,4.35
6.262,1.91,-5.06,0.49,5.43
6.272,2.43,-6.38,-0.35,6.84
6.283,2.01,-8.17,-1.27,8.51
6.292,2.40,-10.02,-2.03,10.51
6.303,3.78,-10.99,-3.51,12.14
6.313,3.24,-10.86,-6.84,13.24
6.323,1.59,-10.74,-8.66,13.89
6.333,0.74,-11.22,-10.33,15.27
6.343,0.15,-12.62,-12.06,17.46
6.353,0.54,-14.40,-16.03,21.56
6.363,0.26,-14.68,-21.02,25.64
6.373,-2.00,-12.10,-21.87,25.07
6.383,-2.62,-6.83,-22.89,24.03
6.393,-1.13,-2.51,-27.27,27.41
6.403,0.96,0.29,-32.64,32.66
6.413,3.49,2.72,-37.00,37.26
6.423,6.71,3.75,-35.38,36.20
6.433,8.31,2.20,-29.58,30.81
6.443,4.35,-1.94,-22.88,23.37
6.453,-0.38,-4.26,-17.22,17.74
6.463,-6.20,-10.17,44.17,45.75
6.473,-6.00,-15.83,44.22,47.35
6.483,1.81,-4.92,-42.98,43.30
6.493,3.49,-1.56,-12.81,13.37
6.503,5.91,-2.09,-6.51,9.04
6.513,5.88,-4.38,-3.21,8.00
6.523,2.90,-6.64,-8.99,11.55
6.533,3.06,-7.20,2.22,8.14
6.543,-0.86,-3.57,-3.11,4.81
6.553,-1.28,-0.02,-6.64,6.76
6.563,0.80,0.20,-2.07,2.23
6.573,0.12,0.25,-1.96,1.98
6.583,-0.44,-0.22,-1.21,1.31
6.593,1.13,-1.73,-0.50,2.13
6.603,1.94,-2.43,-1.55,3.48
6.613,1.16,-2.28,-2.22,3.39
6.623,0.53,-1.65,-1.24,2.14
6.633,0.21,-0.47,-0.60,0.79
6.643,-0.24,0.50,-0.49,0.74
6.653,-1.10,0.58,-0.51,1.34
6.663,-1.37,0.09,-0.46,1.45
6.673,-0.77,-0.26,-0.63,1.03
6.683,-0.07,-0.33,-0.85,0.91
6.693,0.27,-0.19,-0.54,0.63
6.703,0.20,-0.04,0.01,0.20
6.714,0.06,-0.18,0.38,0.42
6.724,0.01,-0.45,0.57,0.73
6.733,0.19,-0.46,0.75,0.90
6.743,0.44,-0.47,0.66,0.92
6.753,0.56,-0.26,0.50,0.79
6.763,0.43,0.18,0.67,0.82
6.774,0.23,0.58,0.73,0.96
6.784,-0.01,0.93,0.71,1.17
6.793,-0.36,1.10,0.84,1.43
6.804,-0.67,1.01,1.13,1.66
6.814,-0.85,0.88,1.18,1.70
6.824,-1.01,0.68,1.20,1.71
6.834,-1.00,0.40,1.08,1.53
6.844,-0.77,0.12,0.70,1.04
6.854,-0.46,-0.35,0.53,0.78
6.864,-0.08,-0.75,0.28,0.81
6.874,0.37,-0.94,-0.07,1.01
6.884,0.90,-0.89,-0.33,1.31
6.895,1.33,-0.76,-0.40,1.58
6.904,1.52,-0.67,-0.21,1.68
6.914,1.50,-0.67,-0.06,1.65
6.924,1.23,-0.89,-0.00,1.52
6.934,0.87,-1.21,0.30,1.52
6.944,0.80,-1.29,0.76,1.70
6.954,0.82,-1.25,0.95,1.77
6.964,0.65,-1.35,1.04,1.82
6.974,0.21,-1.58,1.24,2.02
6.984,-0.31,-1.64,1.50,2.25
6.994,-0.25,-1.40,1.52,2.08
7.004,0.33,-1.20,1.22,1.74
7.014,0.48,-1.53,1.08,1.94
7.024,-0.72,-1.92,1.58,2.59
7.034,-0.90,-3.60,2.68,4.58
7.044,-1.06,-4.25,3.51,5.61
7.054,-0.46,-5.41,4.16,6.84
7.064,-0.74,-7.03,4.18,8.21
7.074,-1.00,-7.67,6.11,9.85
7.084,-0.29,-8.76,8.01,11.87
7.094,0.81,-9.54,8.96,13.11
7.104,0.98,-9.75,9.05,13.34
7.114,1.00,-10.34,9.79,14.27
7.124,1.03,-11.44,12.07,16.66
7.134,1.21,-11.21,13.70,17.75
7.144,-0.77,-9.34,15.79,18.36
7.154,-4.14,-5.07,9.53,11.56
7.164,-4.70,-4.37,5.06,8.17
7.174,-5.02,-4.95,5.73,9.08
7.184,-6.41,-4.82,9.42,12.37
7.194,-8.56,-6.84,15.66,19.11
7.204,-9.28,-8.95,17.57,21.79
7.214,-8.96,-8.56,12.92,17.91
7.224,-7.61,-4.29,13.50,16.08
7.234,-4.25,-0.03,15.30,15.88
7.245,-3.11,1.29,14.32,14.71
7.254,-2.17,1.72,12.70,13.00
7.265,-1.46,1.81,10.36,10.62
7.274,-1.73,1.92,8.38,8.77
7.285,-2.33,2.08,7.25,7.89
7.294,-2.33,1.76,7.57,8.11
7.305,-1.60,1.18,9.30,9.51
7.315,-0.71,0.56,9.83,9.87
7.325,-0.24,0.09,8.41,8.41
7.335,0.10,-0.23,6.25,6.26
7.345,0.73,-1.05,4.24,4.43
7.355,1.44,-2.59,3.17,4.34
7.365,2.09,-4.25,3.19,5.71
7.375,2.58,-5.28,3.31,6.74
7.385,2.04,-5.28,0.23,5.66
7.395,0.85,-5.57,-4.51,7.22
7.405,2.39,-7.84,-1.79,8.39
7.415,5.08,-9.63,2.82,11.25
7.425,2.32,-8.79,-3.10,9.61
7.435,0.62,-8.03,-5.51,9.76
7.445,1.94,-7.92,-6.18,10.23
7.455,1.11,-8.68,-6.34,10.80
7.465,-0.35,-9.84,-9.63,13.77
7.475,-1.40,-10.79,-11.87,16.10
7.485,-2.24,-14.88,-13.90,20.48
7.495,-2.23,-14.66,-16.36,22.08
7.505,-1.16,-13.72,-17.27,22.08
7.515,-1.90,-16.94,-26.37,31.40
7.525,-1.06,-12.53,-30.68,33.16
7.535,2.58,-4.99,-35.24,35.68
7.545,4.99,0.35,-40.99,41.30
7.555,7.79,3.87,-43.43,44.29
7.565,10.31,3.55,-39.05,40.54
7.575,7.63,0.58,-28.54,29.55
7.585,-2.24,-2.90,-6.31,7.30
7.595,-8.51,-20.55,72.75,76.08
7.605,-4.87,-12.62,5.19,14.49
7.615,-0.50,-0.49,-15.71,15.73
7.625,-0.27,-1.41,-12.70,12.78
7.635,-0.21,-1.41,-16.08,16.14
7.645,0.09,-0.20,-13.10,13.10
7.655,1.97,2.05,-5.65,6.33
7.665,5.62,0.99,1.91,6.02
7.675,7.40,-9.72,7.81,14.50
7.685,5.37,-20.80,4.25,21.90
7.695,2.00,-12.20,-7.91,14.68
7.705,-0.44,-3.21,-7.95,8.59
7.715,0.18,-1.97,-2.28,3.02
7.725,0.73,-0.93,2.22,2.51
7.735,-1.72,0.51,0.86,1.99
7.746,-1.92,0.95,-1.41,2.57
7.755,-2.10,0.54,-1.86,2.85
7.765,-1.96,-0.03,-1.52,2.48
7.775,-1.24,-0.14,-0.94,1.56
7.785,-0.51,-0.22,-0.46,0.72
7.795,0.16,-0.41,-0.30,0.53
7.806,0.50,-0.30,0.04,0.58
7.815,0.58,-0.10,0.46,0.75
7.826,0.60,-0.15,0.60,0.86
7.835,0.38,-0.13,0.35,0.53
7.846,0.24,-0.06,0.17,0.30
7.856,0.38,0.01,0.16,0.41
7.866,0.24,-0.06,0.28,0.37
7.876,0.03,-0.04,0.37,0.37
7.886,-0.14,0.11,0.36,0.40
7.896,-0.25,0.32,0.36,0.54
7.906,-0.32,0.49,0.54,0.79
7.916,-0.32,0.64,0.59,0.92
7.926,-0.34,0.58,0.57,0.88
7.936,-0.34,0.77,0.50,0.98
7.946,-0.61,0.47,0.38,0.86
7.956,-0.98,-0.02,0.20,1.00
7.966,-0.96,-0.03,0.16,0.97
7.976,-0.59,0.06,0.22,0.63
7.986,-0.02,-0.15,0.07,0.16
7.996,0.39,-0.30,0.29,0.57
8.006,0.85,-0.57,0.35,1.08
8.016,1.31,-0.62,-0.08,1.46
8.026,1.58,-0.72,-0.22,1.75
8.036,1.43,-0.56,-0.05,1.54
8.046,1.20,-0.52,0.15,1.32
8.056,0.60,-0.59,-0.01,0.84
8.066,0.19,-0.48,0.04,0.51
8.076,0.14,-0.40,0.42,0.60
8.086,0.33,-0.41,0.62,0.81
8.096,0.23,-0.53,0.81,1.00
8.106,-0.14,-0.66,1.17,1.35
8.116,-0.42,-0.72,1.51,1.73
8.126,-0.24,-0.64,1.59,1.73
8.136,0.28,-0.67,1.58,1.74
8.146,0.53,-0.80,1.72,1.97
8.156,0.13,-1.45,2.53,2.91
8.166,-0.43,-2.30,3.46,4.18
8.176,-0.23,-3.63,4.72,5.96
8.186,0.07,-4.11,4.97,6.45
8.196,-1.04,-4.57,4.94,6.81
8.206,-1.67,-5.32,7.71,9.52
8.216,-0.82,-5.27,8.61,10.13
8.226,0.70,-4.33,5.79,7.26
8.236,1.06,-4.16,5.03,6.62
8.247,0.65,-2.62,6.81,7.33
8.256,0.56,-0.43,10.82,10.84
8.266,-2.98,-1.97,13.31,13.79
8.276,-6.14,-6.33,14.33,16.83
8.287,-9.68,-13.75,15.30,22.73
8.296,-8.95,-8.86,13.96,18.80
8.307,-7.15,0.09,15.92,17.45
8.316,-7.91,2.55,17.50,19.37
8.327,-8.98,1.83,15.76,18.24
8.337,-8.99,0.22,12.66,15.53
8.347,-5.52,0.42,11.73,12.97
8.358,-4.12,0.82,11.06,11.83
8.367,-4.98,1.27,10.19,11.41
8.377,-4.90,1.85,9.20,10.59
8.387,-4.99,1.65,8.51,10.00
8.397,-5.15,1.06,7.77,9.38
8.407,-4.78,0.29,6.84,8.36
8.417,-4.43,-0.33,5.80,7.30
8.427,-4.13,-0.86,4.89,6.46
8.437,-3.91,-1.74,4.02,5.87
8.447,-3.62,-2.15,2.77,5.04
8.457,-3.29,-2.20,2.00,4.43
8.467,-2.66,-2.22,1.68,3.85
8.477,-2.23,-2.70,1.35,3.76
8.487,-1.80,-3.38,0.43,3.86
8.497,-1.39,-3.74,-0.54,4.03
8.507,-1.02,-4.05,-1.10,4.32
8.517,-0.40,-4.08,-1.36,4.32
8.527,-0.14,-4.46,-1.58,4.73
8.537,-0.18,-5.14,-2.20,5.59
8.547,-0.14,-5.32,-3.40,6.31
8.557,0.20,-5.17,-4.46,6.83
8.567,1.44,-5.13,-5.31,7.52
8.577,1.89,-5.16,-6.22,8.30
8.587,1.44,-5.43,-7.29,9.20
8.597,2.18,-5.40,-8.14,10.01
8.607,2.97,-4.82,-8.37,10.10
8.617,2.74,-5.54,-8.80,10.75
8.627,1.86,-5.79,-10.15,11.83
8.637,1.44,-5.55,-11.33,12.70
8.647,1.54,-5.38,-12.63,13.82
8.657,1.66,-5.69,-14.35,15.53
8.667,1.68,-6.55,-15.95,17.32
8.677,1.92,-6.96,-16.82,18.30
8.687,2.29,-6.39,-15.63,17.04
8.697,2.20,-5.08,-14.22,15.26
8.707,1.56,-3.95,-13.80,14.44
8.717,1.59,-3.87,-15.08,15.65
8.727,1.05,-2.02,-9.77,10.03
8.737,1.53,1.88,-8.21,8.56
8.748,1.50,3.50,-8.97,9.74
8.757,1.32,4.62,-9.11,10.30
8.767,1.11,5.70,-11.57,12.94
8.778,1.02,5.96,-7.70,9.79
8.787,1.05,6.51,-6.49,9.25
8.797,0.96,6.64,-6.85,9.59
8.808,0.89,6.91,-6.76,9.71
8.818,1.25,3.35,-0.47,3.61
8.828,5.15,-36.07,50.26,62.08
8.838,2.99,-22.51,11.19,25.32
8.848,2.31,1.60,-10.52,10.89
8.858,2.54,-0.27,-7.27,7.71
8.868,2.72,-0.31,-8.35,8.79
8.878,3.89,-4.43,-5.09,7.79
8.888,7.00,-29.03,8.03,30.92
8.898,-1.20,-26.10,14.30,29.78
8.908,-2.86,-1.81,5.50,6.46
8.918,-0.74,2.79,-12.30,12.64
8.928,-2.53,1.76,-6.65,7.33
8.938,-4.52,0.31,7.88,9.09
8.948,-5.20,-0.35,11.86,12.95
8.958,-4.35,0.87,-2.92,5.31
8.968,-4.08,1.62,-7.61,8.78
8.978,-3.96,1.65,-6.71,7.96
8.988,-2.19,1.43,-2.09,3.35
8.998,0.02,1.58,6.20,6.40
9.008,0.82,0.65,9.59,9.65
9.018,-1.90,-0.04,-3.66,4.13
9.028,-2.18,-1.20,-9.45,9.77
9.038,0.36,-4.11,11.46,12.18
9.048,-2.36,0.48,1.40,2.79
9.058,-4.27,2.07,-10.18,11.23
9.068,-4.41,1.45,-8.12,9.35
9.078,9.13,-1.45,12.17,15.29
9.088,10.14,-3.10,-1.75,10.74
9.098,4.80,-1.85,1.13,5.27
9.108,-7.69,-0.78,-9.62,12.34
9.118,-4.21,-6.10,-3.64,8.26
9.128,0.52,-0.39,-0.86,1.08
9.138,-1.15,0.64,-5.75,5.90
9.148,0.92,-0.50,-1.59,1.90
9.158,2.08,-1.08,6.99,7.38
9.168,-0.31,-0.35,-4.83,4.86
9.178,0.83,-0.58,-5.54,5.63
9.188,1.66,-1.11,-2.89,3.51
9.198,3.77,-7.17,9.54,12.51
9.208,0.48,-1.57,-3.74,4.09
9.218,1.86,0.20,2.15,2.85
9.228,0.75,-0.59,-4.25,4.35
9.238,1.85,-0.85,0.60,2.12
9.248,2.58,-3.54,5.37,6.93
9.258,1.41,-2.11,-1.52,2.96
9.268,-0.43,-0.67,-13.95,13.98
9.278,3.93,-2.44,14.07,14.81
9.289,0.44,-0.41,-6.27,6.30
9.298,3.47,-1.40,5.41,6.58
9.309,1.96,-0.88,-2.16,3.05
9.319,2.32,0.55,0.02,2.38
9.329,1.94,-0.29,0.53,2.03
9.339,-0.57,-0.09,0.41,0.71
9.349,0.76,0.19,0.09,0.79
9.359,-1.12,-0.32,0.29,1.20
9.369,0.79,0.24,-0.27,0.87
9.379,-0.91,-0.24,0.18,0.96
9.389,0.40,0.16,-0.25,0.50
9.399,-0.42,-0.10,0.02,0.43
9.409,-0.14,-0.04,0.02,0.15
9.419,0.12,0.05,-0.05,0.14
9.429,-0.59,-0.18,0.12,0.63
9.439,0.35,0.15,-0.15,0.40
9.449,-0.57,-0.16,0.09,0.60
9.459,0.17,0.08,-0.12,0.22
9.469,-0.32,-0.09,0.03,0.34
9.479,-0.05,0.01,-0.04,0.06
9.489,-0.15,-0.03,-0.01,0.16
9.499,-0.16,-0.03,-0.01,0.16
9.509,-0.09,-0.00,-0.05,0.10
9.519,-0.20,-0.04,0.00,0.21
9.529,-0.05,0.00,-0.02,0.06
9.539,-0.19,-0.04,0.03,0.19
9.549,-0.07,0.00,-0.03,0.07
9.559,-0.18,-0.04,0.01,0.18
9.569,-0.09,-0.00,-0.04,0.10
9.579,-0.18,-0.04,0.01,0.18
9.589,-0.10,-0.01,-0.03,0.11
9.599,-0.16,-0.03,-0.01,0.16
9.609,-0.11,-0.01,-0.03,0.12
9.619,-0.13,-0.02,0.00,0.13
9.629,-0.11,-0.01,-0.02,0.11
9.639,-0.13,-0.02,-0.01,0.13
9.649,-0.12,-0.03,-0.01,0.12
9.659,-0.12,-0.02,-0.01,0.12
9.669,-0.11,-0.02,-0.01,0.11
9.679,-0.10,-0.02,-0.02,0.10
9.689,-0.12,-0.02,-0.01,0.13
9.699,-0.11,-0.02,-0.01,0.12
9.709,-0.12,-0.02,0.01,0.12
9.719,-0.10,-0.02,-0.00,0.10
9.729,-0.13,-0.02,-0.00,0.13
9.739,-0.10,-0.02,-0.02,0.10
9.749,-0.11,-0.03,0.00,0.12
9.759,-0.09,-0.01,-0.01,0.09
9.769,-0.12,-0.01,0.00,0.12
9.779,-0.40,-0.11,0.23,0.47
9.789,-0.18,0.32,-0.35,0.50
9.799,0.01,-0.11,0.65,0.66
9.809,1.67,1.10,0.76,2.14
9.820,3.44,1.18,0.61,3.69
9.829,2.86,0.87,0.68,3.07
9.839,-1.37,-0.53,-1.06,1.81
9.850,-2.67,-0.39,-2.39,3.60
9.860,1.04,1.16,3.54,3.87
9.870,2.65,4.42,9.00,10.37
9.880,4.67,6.23,6.61,10.21
9.890,8.28,2.74,5.50,10.32
9.900,1.08,6.42,-1.68,6.72
9.910,-7.62,4.86,2.84,9.48
9.920,-2.53,-3.88,6.99,8.38
9.930,-0.67,1.32,11.10,11.19
9.940,1.97,3.26,18.46,18.85
9.950,5.28,3.03,23.65,24.42
9.960,7.39,4.29,25.06,26.48
9.970,5.40,4.02,24.68,25.58
9.980,3.00,2.40,21.92,22.26
9.990,0.72,2.58,17.90,18.10
10.000,-0.15,2.42,15.01,15.20
10.010,-0.24,1.79,12.65,12.77
10.020,-0.00,1.29,10.42,10.50
10.030,-0.43,0.81,9.02,9.07
10.040,-0.93,0.82,7.88,7.98
10.050,-1.46,0.60,6.57,6.76
10.060,-2.42,-1.27,6.12,6.70
10.070,-4.09,-4.76,6.88,9.31
10.080,-4.22,-6.27,7.07,10.35
10.090,-3.43,-6.41,6.61,9.82
10.100,-2.53,-6.63,6.38,9.54
10.110,-1.53,-6.34,5.26,8.38
10.120,-0.43,-5.04,3.20,5.99
10.130,0.08,-4.59,1.02,4.70
10.140,-0.61,-4.43,-0.93,4.57
10.150,-1.25,-4.62,-2.52,5.41
10.160,-1.70,-4.04,-3.40,5.55
10.170,-1.85,-2.96,-3.26,4.77
10.180,-2.09,-2.99,-2.10,4.21
10.190,-2.28,-3.29,-0.71,4.06
10.200,-2.01,-2.86,0.21,3.50
10.210,0.51,-4.69,1.33,4.90
10.220,6.64,0.90,1.20,6.81
10.231,17.59,0.58,-5.66,18.49
10.240,4.37,-4.17,0.13,6.04
10.250,11.21,-2.01,0.34,11.39
10.261,10.61,-0.27,-0.03,10.61
10.270,5.68,-1.09,-2.03,6.13
10.280,1.44,-1.92,-5.12,5.66
10.290,-2.55,-3.07,-7.56,8.55
10.300,-5.28,-2.90,-8.09,10.09
10.311,-7.15,-2.83,-8.81,11.70
10.320,-6.41,-3.59,-8.46,11.20
10.331,-5.35,-4.65,-7.75,10.50
10.340,-3.15,-4.78,-7.22,9.22
10.351,-0.35,-4.15,-5.97,7.28
10.361,1.94,-2.62,-2.52,4.12
10.371,1.80,-1.35,-4.29,4.84
10.381,1.71,-1.95,-4.67,5.34
10.391,3.10,-2.29,-4.57,5.98
10.401,8.57,-1.88,-4.58,9.90
10.411,6.37,-2.43,-5.40,8.70
10.421,-0.26,-3.68,-6.65,7.61
10.431,-1.32,-4.77,-6.77,8.39
10.441,-1.49,-5.07,-6.35,8.26
10.451,-0.90,-4.30,-6.07,7.49
10.461,0.62,-3.31,-5.94,6.82
10.471,1.69,-2.39,-5.58,6.31
10.481,1.61,-1.73,-5.08,5.61
10.491,0.71,-1.64,-5.36,5.65
10.501,-0.33,-2.07,-5.77,6.14
10.511,-1.25,-2.76,-5.49,6.27
10.521,-2.43,-3.04,-4.75,6.14
10.531,-3.12,-2.67,-3.57,5.44
10.541,-2.71,-1.87,-2.69,4.25
10.551,-1.47,-1.24,-2.30,3.00
10.561,-0.43,-0.89,-1.88,2.13
10.571,0.29,-0.83,-2.09,2.27
10.581,0.58,-1.31,-3.00,3.33
10.591,0.50,-1.93,-3.80,4.30
10.601,0.31,-2.20,-4.24,4.79
10.611,-0.06,-2.20,-4.54,5.04
10.621,-0.31,-1.84,-4.43,4.81
10.631,-0.27,-1.35,-4.00,4.23
10.641,-0.40,-1.43,-3.51,3.81
10.651,-0.56,-1.35,-3.24,3.55
10.661,-0.40,-0.95,-2.52,2.73
10.671,-0.20,-0.61,-1.79,1.90
10.681,-0.13,-0.47,-1.30,1.39
10.691,0.02,-0.34,-1.18,1.23
10.701,0.30,-0.20,-1.31,1.36
10.711,0.46,-0.37,-1.46,1.57
10.721,0.53,-0.82,-1.55,1.83
10.732,0.75,-1.03,-1.58,2.03
10.741,1.02,-1.03,-1.69,2.23
10.752,1.23,-0.73,-1.75,2.26
10.761,0.99,-0.34,-1.78,2.06
10.771,0.53,-0.27,-1.54,1.65
10.781,0.20,-0.27,-1.13,1.18
10.791,0.25,-0.21,-0.89,0.95
10.802,0.30,-0.37,-0.81,0.94
10.811,0.43,-0.54,-0.71,0.99
10.821,0.63,-0.68,-0.62,1.11
10.832,0.63,-0.75,-0.63,1.17
10.842,0.55,-0.67,-0.75,1.15
10.852,0.43,-0.56,-1.02,1.24
10.862,0.29,-0.59,-1.27,1.43
10.871,0.42,-0.50,-1.20,1.36
10.882,0.86,-0.13,-0.97,1.30
10.892,0.91,0.25,-0.99,1.37
10.902,1.22,0.52,-0.72,1.51
10.912,1.78,0.59,-0.24,1.89
10.922,2.06,0.47,0.29,2.13
10.932,2.03,0.24,0.60,2.14
10.942,2.28,0.11,0.82,2.43
10.952,2.43,0.05,0.70,2.53
10.962,2.34,0.03,0.32,2.36
10.972,2.01,0.05,0.06,2.01
10.982,1.65,-0.05,0.15,1.66
10.992,1.13,-0.19,0.30,1.18
11.002,0.43,-0.27,0.54,0.75
11.012,-0.17,-0.12,0.60,0.63
11.022,-0.47,0.22,0.60,0.79
11.032,-0.63,-0.14,0.76,1.00
11.042,-0.79,-0.77,1.17,1.60
11.052,-0.38,-0.64,1.33,1.53
11.062,0.05,-0.60,0.83,1.03
11.072,-0.04,-0.96,0.15,0.97
11.082,-0.05,-1.30,-0.34,1.34
11.092,0.04,-1.50,-0.69,1.65
11.102,-0.00,-1.71,-1.19,2.08
11.112,-0.15,-1.62,-1.76,2.40
11.122,-0.26,-1.24,-2.28,2.60
11.132,-0.05,-0.88,-2.33,2.49
11.142,0.28,-0.56,-2.12,2.21
11.152,0.38,-0.43,-1.73,1.83
11.162,0.53,-0.24,-1.27,1.40
11.172,0.71,-0.04,-1.00,1.22
11.182,0.89,-0.04,-0.77,1.18
11.192,1.02,-0.04,-0.58,1.17
11.202,1.22,0.08,-0.51,1.32
11.212,1.64,0.34,-0.39,1.72
11.222,1.82,0.48,-0.12,1.89
11.232,1.65,0.15,-0.01,1.65
11.242,1.35,-0.52,-0.16,1.45
11.252,1.23,-0.71,-0.42,1.47
11.262,1.49,-0.10,-0.26,1.52
11.272,1.53,0.21,0.13,1.55
11.282,1.40,0.19,0.32,1.45
11.293,1.26,-0.12,0.41,1.33
11.302,1.25,-0.50,0.45,1.42
11.312,1.15,-0.74,0.53,1.46
11.323,0.90,-0.87,0.89,1.53
11.332,0.61,-0.87,1.39,1.75
11.343,0.27,-0.73,1.54,1.73
11.353,0.10,-0.45,1.38,1.45
11.362,-0.11,-0.27,0.93,0.98
11.373,-0.35,-0.28,0.39,0.60
11.383,-0.49,-0.42,-0.06,0.65
11.393,-0.44,-0.37,-0.43,0.72
11.403,-0.19,-0.29,-0.35,0.49
11.413,-0.25,-0.41,-0.17,0.51
11.423,-0.03,-0.74,0.39,0.84
11.433,0.23,-0.30,-0.14,0.40
11.443,-0.47,0.09,-0.28,0.55
11.453,-0.52,-0.31,0.49,0.78
11.463,-0.02,-0.91,1.46,1.72
11.473,0.71,-1.03,1.68,2.09
